Folder: NearFieldOptics/Materials/Tabulated (part 2)

File: Stewart2012_V2O3_Ellipsometry_eps2.csv
#First row: Temperature [K]; First column: Frequency [cm-1]

0,120,140,150,160,180,200,230,260,280
60.6529,0.01874,13.41255,12.23588,87.71479,1069.93,1493.7,1466.12,1376.8,1195.16
71.622,0.0222,11.6307,10.7473,78.29594,969.092,1358.08,1333.21,1252.04,1086.28
82.6718,0.02567,10.277,9.60038,70.70731,884.792,1244.01,1221.68,1147.34,995.294
93.7216,0.02914,9.21479,8.69157,64.46301,813.225,1146.69,1126.72,1058.2,918.115
104.691,0.03261,8.35998,7.95531,59.23514,751.673,1062.64,1044.84,981.348,851.806
115.741,0.03609,7.65799,7.34806,54.79446,698.142,989.3,973.499,914.389,794.2089
126.71,0.03956,7.07183,6.8398,50.9758,651.138,924.716,910.759,855.509,743.703
137.76,0.04303,6.57557,6.40914,47.65721,609.5198,867.395,855.136,803.312,699.046
148.809,0.0465,6.15047,6.04043,44.74665,572.398,816.164,805.471,756.7089,659.271
159.778,0.04997,5.78266,5.72195,42.17336,539.071,770.094,760.842,714.837,623.613
170.828,0.05344,5.46165,5.44477,39.88206,508.978,728.439,720.514,677.004,591.459
181.878,0.05691,5.17937,5.20192,37.82891,481.666,690.588,683.885,642.646,562.3139
192.847,0.06039,4.92949,4.98794,35.97872,456.763,656.045,650.464,611.301,535.77
203.897,0.06386,4.707,4.79844,34.30291,433.962,624.393,619.843,582.5866,511.492
214.947,0.06733,4.50786,4.62989,32.77802,413.007,595.286,591.683,556.183,489.199
225.916,0.07081,4.32879,4.47939,31.38462,393.684,568.432,565.696,531.822,468.6557
236.966,0.07428,4.16709,4.34455,30.10647,375.81,543.583,541.64,509.275,449.663
248.015,0.07775,4.02053,4.22338,28.92991,359.231,520.525,519.307,488.3469,432.05
258.985,0.08123,3.88724,4.1142,27.84336,343.8135,499.0776,498.518,468.87,415.672
270.034,0.08471,3.76565,4.0156,26.83691,329.442,479.081,479.121,450.701,400.403
281.084,0.08818,3.65441,3.92638,25.9021,316.017,460.398,460.981,433.713,386.133
292.053,0.09166,3.55239,3.8455,25.03157,303.453,442.9077,443.9809,417.796,372.767
303.103,0.09514,3.45861,3.77206,24.21897,291.671,426.5048,428.019,402.8558,360.223
314.072,0.09861,3.37221,3.70531,23.45875,280.606,411.096,413.006,388.806,348.4272
325.122,0.10209,3.29246,3.64456,22.74604,270.197,396.597,398.86,375.573,337.315
336.172,0.10557,3.21873,3.58923,22.07656,260.392,382.936,385.512,363.088,326.828
347.141,0.10905,3.15044,3.53879,21.44654,251.144,370.046,372.898,351.294,316.917
358.191,0.11253,3.08709,3.4928,20.85262,242.41,357.867,360.962,340.137,307.536
369.241,0.11601,3.02826,3.45084,20.29182,234.153,346.348,349.653,329.57,298.643
380.21,0.1195,2.97354,3.41255,19.76147,226.338,335.439,338.925,319.549,290.203
391.26,0.12298,2.9226,3.37762,19.2592,218.934,325.098,328.738,310.035,282.182
402.309,0.12646,2.87512,3.34576,18.78286,211.914,315.285,319.0531,300.995,274.551
413.279,0.12995,2.83083,3.3167,18.33052,205.251,305.963,309.838,292.395,267.283
424.328,0.13343,2.78947,3.29021,17.90044,198.922,297.101,301.06,284.206,260.352
435.378,0.13692,2.75082,3.26609,17.49104,192.906,288.668,292.693,276.403,253.738
446.347,0.14041,2.71468,3.24414,17.10089,187.183,280.637,284.71,268.961,247.419
457.397,0.14389,2.68086,3.22419,16.72869,181.736,272.983,277.0875,261.857,241.376
468.366,0.14738,2.6492,3.20608,16.37326,176.548,266.397,269.804,255.404,235.594
479.416,0.15087,2.61954,3.18967,16.0335,171.603,260.081,263.522,249.86,230.055
490.466,0.15436,2.59175,3.17483,15.70842,167.349,254.022,257.4843,244.214,225.267
501.435,0.15785,2.56569,3.16144,15.39711,163.271,248.205,251.679,238.788,220.6554
512.485,0.16135,2.54125,3.14938,15.09875,159.3605,243.227,246.704,233.854,216.454
523.535,0.16484,2.51832,3.13855,14.81255,156.018,237.834,241.306,229.096,212.394
534.504,0.16834,2.49681,3.12888,14.53781,152.4,232.649,236.108,224.243,208.243
545.553,0.17183,2.47662,3.12107,14.31279,148.9271,227.661,231.1006,219.568,204.236
556.603,0.17533,2.45952,3.11406,14.0952,145.591,223.386,226.802,215.311,200.577
567.008,0.17883,2.44423,3.1078,13.87252,142.736,218.7454,222.13,211.199,197.036
576.444,0.18163,2.42975,3.10223,13.65738,139.641,214.276,217.6244,206.997,193.409
586.284,0.18478,2.41523,3.09783,13.46081,136.666,209.968,213.277,202.944,189.901
596.286,0.18793,2.40153,3.09345,13.27033,133.804,206.27,209.539,199.247,186.693
605.642,0.19108,2.38928,3.08963,13.07502,131.352,202.25,205.471,195.6704,183.583
614.998,0.19388,2.37768,3.08634,12.88596,128.691,198.371,201.541,192.0102,180.391
624.918,0.19704,2.36606,3.08383,12.71288,126.129,194.627,197.744,188.475,177.3
634.839,0.20019,2.35509,3.08144,12.54491,123.662,191.407,194.475,185.245,174.4691
644.195,0.20335,2.3453,3.07948,12.37238,121.545,187.902,190.913,182.117,171.72
653.551,0.20615,2.33603,3.07792,12.20507,118.128,181.062,183.952,176.49,166.757
663.472,0.20931,2.32675,3.07684,12.05167,110.09,169.338,171.989,165.268,156.7819
673.392,0.21247,2.318,3.07596,11.51931,103.09,158.994,161.407,155.35,147.87
682.748,0.21563,2.3102,3.07512,10.98736,96.96694,149.823,152.007,146.546,139.874
694.363,0.21844,2.28485,3.07657,10.50943,91.5885,141.6533,143.6234,138.695,132.67
732.916,0.23057,2.26239,3.08105,10.07812,86.84345,134.342,136.116,131.665,126.154
771.469,0.24289,2.24489,3.08764,9.68739,82.63929,127.771,129.37,125.345,120.239
810.023,0.25523,2.23146,3.09563,9.33218,78.89796,121.841,123.285,119.638,114.853
848.657,0.2676,2.22138,3.10443,9.00824,75.55364,116.469,117.776,114.466,109.932
887.21,0.27998,2.21403,3.11359,8.71204,72.55099,111.5823,112.7719,109.759,105.423
925.763,0.29239,2.20891,3.12273,8.28834,69.84283,107.122,108.21,105.459,101.278
964.317,0.30481,2.2056,3.13326,7.96149,67.38913,103.036,104.037,101.516,97.45714
1002.95,0.31727,2.20403,3.15722,7.74984,65.156,99.27941,100.207,97.88559,93.92595
1191.93,0.37867,2.20537,3.16254,7.55445,63.11436,95.81474,96.67869,94.53119,90.65338
1230.48,0.39129,2.20705,3.16684,7.37385,61.23939,92.60853,93.41836,91.42027,87.6125
1269.11,0.40394,2.20893,3.17008,7.20678,59.51,89.63226,90.39543,88.52503,84.77984
1307.67,0.41662,2.2109,3.17225,7.05209,57.90798,86.86084,87.58334,85.82109,82.13447
1346.22,0.42933,2.21289,3.17336,6.90881,56.41772,84.27238,84.95887,83.2873,79.6579
1384.85,0.44208,2.2148,3.17342,6.77606,55.02587,81.84792,82.50188,80.90543,77.33396
1423.41,0.45487,2.21658,3.17245,6.65304,53.72089,79.57059,80.19452,78.6594,75.14807
1465.83,0.46769,2.21817,3.17049,6.53906,52.37387,77.21782,77.81058,76.32896,72.88762
1508.26,0.48313,2.21979,3.16688,6.41335,51.10864,74.81374,75.37367,73.93598,70.57661
1554.55,0.49862,2.22103,3.16198,6.2988,49.70562,72.56037,73.08778,71.6813,68.41037
1604.72,0.51547,2.22191,3.15529,6.18633,48.38987,70.26985,70.76157,69.37699,66.20939
1658.68,0.5324,2.22229,3.14729,6.08501,47.0577,67.79831,68.24744,67.03772,63.98987
1712.72,0.55202,2.22206,3.13656,5.98086,45.71514,65.48751,65.89202,64.67584,61.76522
1774.42,0.57306,2.22106,3.12355,5.88359,44.44886,63.17706,63.53148,62.30159,59.54609
1839.99,0.59422,2.21928,3.10914,5.79938,43.01662,60.87437,61.17277,59.92349,57.34063
1909.44,0.61818,2.21642,3.09152,5.71883,41.66709,58.46168,58.6945,57.42075,55.03749
1986.54,0.64499,2.21226,3.07052,5.64521,40.25173,56.08072,56.24195,54.94229,52.77314
2067.6,0.67339,2.20693,3.04721,5.58387,38.78386,53.62374,53.70451,52.3791,50.44588
2156.32,0.70477,2.20015,3.02064,5.53288,37.33634,51.11057,51.10334,49.75573,48.07544
2252.71,0.73925,2.19195,2.99102,5.49328,35.79403,48.55809,48.45751,47.19393,45.76728
2360.7,0.77693,2.18249,2.95873,5.46449,34.23151,45.89228,45.69265,44.41782,43.26752
2476.44,0.81938,2.17168,2.9231,5.44294,32.60708,43.22769,42.93079,41.65917,40.77844
2607.59,0.86683,2.16003,2.88492,5.42267,30.93907,40.42248,40.0289,38.8575,38.23831
2750.35,0.92102,2.14801,2.8442,5.39163,29.20073,37.52364,37.04058,35.90456,35.54004
2908.52,0.98242,2.13687,2.80249,5.33304,27.41814,34.57805,34.01905,32.94036,32.80242
3089.83,1.05311,2.12814,2.76087,5.22768,25.541,31.51308,30.89489,29.95628,30.01051
3290.42,1.13556,2.12428,2.72132,5.06399,23.61204,28.4105,27.75603,26.91292,27.12072
3521.82,1.23272,2.12893,2.68699,4.85064,21.64046,25.20832,24.54343,23.90655,24.22074
3791.85,1.35005,2.14759,2.66214,4.6162,19.56337,22.03558,21.38835,20.90414,21.27867
4100.44,1.49455,2.18862,2.65376,4.40279,17.46168,18.87116,18.26911,17.93161,18.32242
4466.86,1.6799,2.26608,2.67314,4.24732,15.32575,15.79766,15.26481,15.0851,15.45546
4856.51,1.9111,2.39326,2.73431,4.1822,13.38733,13.17853,12.72316,12.66075,12.99164
5323.26,2.17972,2.57147,2.84269,4.20702,11.45614,10.74383,10.37488,10.4132,10.69631
5886.4,2.58262,2.87683,3.05335,4.33325,9.58868,8.79615,8.50641,8.53361,8.7757
8872.1,5.45691,5.20692,5.13885,5.16118,4.94679,4.60567,4.55441,4.59556,4.8224
12904.9,4.39705,4.21124,3.9624,3.81273,3.53316,3.49284,3.45742,3.4662,3.58144
16937.6,2.91949,2.91287,2.85406,2.89858,2.59929,2.57128,2.55778,2.56158,2.61855
20970.4,2.2719,2.29077,2.30197,2.38487,1.66701,1.58085,1.58972,1.60648,1.65802
25003.2,2.3676,2.37721,2.41829,2.45016,1.52586,1.28275,1.31173,1.35226,1.39114
29036,3.17648,3.14118,3.2402,3.25212,2.5507,2.53424,2.5815,2.44106,2.62114
33068.7,4.3435,4.31741,4.31075,4.25476,3.86104,3.74834,3.75323,3.74047,3.74947
37101.5,3.95685,3.96639,3.84815,3.73175,3.53016,3.46342,3.45644,3.50079,3.52623
41134.3,3.47797,3.47087,3.43723,3.29347,3.41267,3.3625,3.33194,3.3996,3.4281
44360.5,3.31703,3.34807,3.37159,3.15047,3.3614,3.2853,3.21967,3.2892,3.42386